trig,targ,type,trig_img,targ_img,final_c,new,num,instr,a,k,corr,lang,phase,trials.thisRepN,trials.thisTrialN,trials.thisN,trials.thisIndex,trials_2.thisRepN,trials_2.thisTrialN,trials_2.thisN,trials_2.thisIndex,trials_3.thisRepN,trials_3.thisTrialN,trials_3.thisN,trials_3.thisIndex,key_resp_1.keys,key_resp_1.rt,key_resp_2.keys,key_resp_2.rt,inputText,text_resp.keys,text_resp.rt,key_resp_4.keys,key_resp_4.rt,FC_resp.keys,FC_resp.rt,gender,age,participant,language,date,expName,psychopyVersion,frameRate,
,,,,,,,,,,,,,,,,,,,,,,,,,,space,2.209849555287292,,,,,,,,,,,,001,,2019_Feb_14_1038,experiment2_b,3.0.0,60.172354926888765,
silut,siludu,alt,Images/moustache.jpg,Images/moustache_pl.jpg,d,None,None,None,None,None,None,devoicing,exposure,0,0,0,7,,,,,,,,,,,,,,,,,,,,,,001,,2019_Feb_14_1038,experiment2_b,3.0.0,60.172354926888765,
masit,masidu,alt,Images/thermometer.jpg,Images/thermometer_pl.jpg,d,None,None,None,None,None,None,devoicing,exposure,0,1,1,14,,,,,,,,,,,,,,,,,,,,,,001,,2019_Feb_14_1038,experiment2_b,3.0.0,60.172354926888765,
rumit,rumitu,non_alt,Images/mushroom.jpg,Images/mushroom_pl.jpg,d,None,None,None,None,None,None,devoicing,exposure,0,2,2,5,,,,,,,,,,,,,,,,,,,,,,001,,2019_Feb_14_1038,experiment2_b,3.0.0,60.172354926888765,
nurak,nuraku,non_alt,Images/lion.jpg,Images/lion_pl.jpg,g,None,None,None,None,None,None,devoicing,exposure,0,3,3,2,,,,,,,,,,,,,,,,,,,,,,001,,2019_Feb_14_1038,experiment2_b,3.0.0,60.172354926888765,
nasap,nasabu,alt,Images/spear.jpg,Images/spear_pl.jpg,b,None,None,None,None,None,None,devoicing,exposure,0,4,4,10,,,,,,,,,,,,,,,,,,,,,,001,,2019_Feb_14_1038,experiment2_b,3.0.0,60.172354926888765,
sanup,sanubu,alt,Images/hammock.jpg,Images/hammock_pl.jpg,b,None,None,None,None,None,None,devoicing,exposure,0,5,5,16,,,,,,,,,,,,,,,,,,,,,,001,,2019_Feb_14_1038,experiment2_b,3.0.0,60.172354926888765,
ranut,ranudu,alt,Images/carpet.jpg,Images/carpet_pl.jpg,d,None,None,None,None,None,None,devoicing,exposure,0,6,6,15,,,,,,,,,,,,,,,,,,,,,,001,,2019_Feb_14_1038,experiment2_b,3.0.0,60.172354926888765,
niruk,nirugu,alt,Images/garbage_can.jpg,Images/garbage_can_pl.jpg,g,None,None,None,None,None,None,devoicing,exposure,0,7,7,13,,,,,,,,,,,,,,,,,,,,,,001,,2019_Feb_14_1038,experiment2_b,3.0.0,60.172354926888765,
musap,musabu,alt,Images/apple.jpg,Images/apple_pl.jpg,b,None,None,None,None,None,None,devoicing,exposure,0,8,8,19,,,,,,,,,,,,,,,,,,,,,,001,,2019_Feb_14_1038,experiment2_b,3.0.0,60.172354926888765,
musat,musadu,alt,Images/foot.jpg,Images/foot_pl.jpg,d,None,None,None,None,None,None,devoicing,exposure,0,9,9,8,,,,,,,,,,,,,,,,,,,,,,001,,2019_Feb_14_1038,experiment2_b,3.0.0,60.172354926888765,
rimak,rimagu,alt,Images/bottle.jpg,Images/bottle_pl.jpg,g,None,None,None,None,None,None,devoicing,exposure,0,10,10,1,,,,,,,,,,,,,,,,,,,,,,001,,2019_Feb_14_1038,experiment2_b,3.0.0,60.172354926888765,
sumak,sumagu,alt,Images/basketball.jpg,Images/basketball_pl.jpg,g,None,None,None,None,None,None,devoicing,exposure,0,11,11,12,,,,,,,,,,,,,,,,,,,,,,001,,2019_Feb_14_1038,experiment2_b,3.0.0,60.172354926888765,
rumut,rumudu,alt,Images/river.jpg,Images/river_pl.jpg,d,None,None,None,None,None,None,devoicing,exposure,0,12,12,18,,,,,,,,,,,,,,,,,,,,,,001,,2019_Feb_14_1038,experiment2_b,3.0.0,60.172354926888765,
narit,naridu,alt,Images/squid.jpg,Images/squid_pl.jpg,d,None,None,None,None,None,None,devoicing,exposure,0,13,13,6,,,,,,,,,,,,,,,,,,,,,,001,,2019_Feb_14_1038,experiment2_b,3.0.0,60.172354926888765,
musabu,musap,alt,Images/apple_pl.jpg,Images/apple.jpg,b,given,sg,Write the singular form on your keyboard - then press enter,None,None,None,devoicing,prod,0,14,14,4,,,,,,,,,,,,,,,,,,,,,,001,,2019_Feb_14_1038,experiment2_b,3.0.0,60.172354926888765,
nulip,nulipu,non_alt,Images/computer.jpg,Images/computer_pl.jpg,b,None,None,None,None,None,None,devoicing,exposure,0,15,15,17,,,,,,,,,,,,,,,,,,,,,,001,,2019_Feb_14_1038,experiment2_b,3.0.0,60.172354926888765,
mamat,mamatu,non_alt,Images/ice-cream.jpg,Images/ice-cream_pl.jpg,d,None,None,None,None,None,None,devoicing,exposure,0,16,16,11,,,,,,,,,,,,,,,,,,,,,,001,,2019_Feb_14_1038,experiment2_b,3.0.0,60.172354926888765,
samuk,samugu,alt,Images/sleigh.jpg,Images/sleigh_pl.jpg,g,None,None,None,None,None,None,devoicing,exposure,0,17,17,3,,,,,,,,,,,,,,,,,,,,,,001,,2019_Feb_14_1038,experiment2_b,3.0.0,60.172354926888765,
lunit,lunidu,alt,Images/ship.jpg,Images/ship_pl.jpg,d,None,None,None,None,None,None,devoicing,exposure,0,18,18,0,,,,,,,,,,,,,,,,,,,,,,001,,2019_Feb_14_1038,experiment2_b,3.0.0,60.172354926888765,
runuk,runugu,alt,Images/cup.jpg,Images/cup_pl.jpg,g,None,None,None,None,None,None,devoicing,exposure,0,19,19,9,,,,,,,,,,,,,,,,,,,,,,001,,2019_Feb_14_1038,experiment2_b,3.0.0,60.172354926888765,
,,,,,,,,,,,,,,,,,,,,,,,,,,,,space,10.150573126778909,,,,,,,,,,001,,2019_Feb_14_1038,experiment2_b,3.0.0,60.172354926888765,
misudu,misut,alt,Images/bicycle_pl.jpg,Images/bicycle.jpg,d,new,sg,Write the singular form on your keyboard - then press enter,None,None,None,devoicing,prod,,,,,0,0,0,3,,,,,,,,,df,"['d', 'f', 'return']","[0.36679943207764154, 0.4499621157820002, 1.0159280097477676]",,,,,,,001,,2019_Feb_14_1038,experiment2_b,3.0.0,60.172354926888765,
salugu,saluk,alt,Images/thistle_pl.jpg,Images/thistle.jpg,g,new,sg,Write the singular form on your keyboard - then press enter,None,None,None,devoicing,prod,,,,,0,1,1,7,,,,,,,,,fg,"['f', 'g', 'return']","[3.0137735581811285, 3.0974012621245492, 3.7800228158548634]",,,,,,,001,,2019_Feb_14_1038,experiment2_b,3.0.0,60.172354926888765,
lumudu,lumut,alt,Images/knife_pl.jpg,Images/knife.jpg,d,new,sg,Write the singular form on your keyboard - then press enter,None,None,None,devoicing,prod,,,,,0,2,2,8,,,,,,,,,fg,"['f', 'g', 'return']","[4.312791384241791, 4.412750257681182, 5.228414101802628]",,,,,,,001,,2019_Feb_14_1038,experiment2_b,3.0.0,60.172354926888765,
sunudu,sunut,non_alt,Images/flagpole_pl.jpg,Images/flagpole.jpg,d,given,sg,Write the singular form on your keyboard - then press enter,None,None,None,devoicing,prod,,,,,0,3,3,0,,,,,,,,,gh,"['g', 'h', 'return']","[5.028544563443575, 5.2452034655525495, 5.961197687355707]",,,,,,,001,,2019_Feb_14_1038,experiment2_b,3.0.0,60.172354926888765,
silat,siladu,alt,Images/factory.jpg,Images/factory_pl.jpg,d,new,pl,Write the plural form on your keyboard - then press enter,None,None,None,devoicing,prod,,,,,0,4,4,4,,,,,,,,,fg,"['f', 'g', 'return']","[27.971678560946202, 28.104569826415172, 28.737249912968764]",,,,,,,001,,2019_Feb_14_1038,experiment2_b,3.0.0,60.172354926888765,
limibu,limip,alt,Images/ring_pl.jpg,Images/ring.jpg,b,new,sg,Write the singular form on your keyboard - then press enter,None,None,None,devoicing,prod,,,,,0,5,5,1,,,,,,,,,fg,"['f', 'g', 'return']","[13.652365801131054, 13.76930815227388, 14.48518633232925]",,,,,,,001,,2019_Feb_14_1038,experiment2_b,3.0.0,60.172354926888765,
rumudu,rumut,alt,Images/river_pl.jpg,Images/river.jpg,d,given,sg,Write the singular form on your keyboard - then press enter,None,None,None,devoicing,prod,,,,,0,6,6,2,,,,,,,,,jk,"['j', 'k', 'return']","[17.98183520024031, 18.048403060771307, 18.69793351831686]",,,,,,,001,,2019_Feb_14_1038,experiment2_b,3.0.0,60.172354926888765,
nirudu,nirut,alt,Images/airplane_pl.jpg,Images/airplane.jpg,d,new,sg,Write the singular form on your keyboard - then press enter,None,None,None,devoicing,prod,,,,,0,7,7,5,,,,,,,,,kl,"['k', 'l', 'return']","[1.2326551717078473, 1.2826900695572476, 1.9650582085887436]",,,,,,,001,,2019_Feb_14_1038,experiment2_b,3.0.0,60.172354926888765,
susagu,susak,alt,Images/box_pl.jpg,Images/box.jpg,g,new,sg,Write the singular form on your keyboard - then press enter,None,None,None,devoicing,prod,,,,,0,8,8,9,,,,,,,,,fg,"['f', 'g', 'return']","[1.6990606591170945, 1.7817177932956838, 2.5979302759742495]",,,,,,,001,,2019_Feb_14_1038,experiment2_b,3.0.0,60.172354926888765,
nirubu,nirup,alt,Images/glove_pl.jpg,Images/glove.jpg,b,new,sg,Write the singular form on your keyboard - then press enter,None,None,None,devoicing,prod,,,,,0,9,9,6,,,,,,,,,df,"['d', 'f', 'return']","[0.45000051194892876, 0.5668165823653908, 1.3491026389256149]",,,,,,,001,,2019_Feb_14_1038,experiment2_b,3.0.0,60.172354926888765,
,,,,,,,,,,,,,,,,,,,,,,,,,,,,,,,,,space,3.251348985317236,,,,,001,,2019_Feb_14_1038,experiment2_b,3.0.0,60.172354926888765,
lilidu,None,alt,Images/hamburger_pl.jpg,Images/hamburger.jpg,d,new,sg,Choose the singular form of the word that belongs to the language,lilid,lilit,k,devoicing,FC,,,,,,,,,0,0,0,0,,,,,,,,,,k,2.6976148301346257,,,001,,2019_Feb_14_1038,experiment2_b,3.0.0,60.172354926888765,
lisak,None,alt,Images/flower.jpg,Images/flower_pl.jpg,g,new,pl,Choose the plural form of the word that belongs to the language,lisagu,lisaku,k,devoicing,FC,,,,,,,,,0,1,1,9,,,,,,,,,,a,4.629207366603623,,,001,,2019_Feb_14_1038,experiment2_b,3.0.0,60.172354926888765,
munibu,None,alt,Images/calender_pl.jpg,Images/calender.jpg,b,new,sg,Choose the singular form of the word that belongs to the language,munip,munib,a,devoicing,FC,,,,,,,,,0,2,2,2,,,,,,,,,,a,2.1650006996633238,,,001,,2019_Feb_14_1038,experiment2_b,3.0.0,60.172354926888765,
nuruk,None,alt,Images/clarinet.jpg,Images/clarinet_pl.jpg,g,given,pl,Choose the plural form of the word that belongs to the language,nurugu,nuruku,a,devoicing,FC,,,,,,,,,0,3,3,8,,,,,,,,,,a,2.3981661137622723,,,001,,2019_Feb_14_1038,experiment2_b,3.0.0,60.172354926888765,
nurat,None,alt,Images/copier.jpg,Images/copier_pl.jpg,d,given,pl,Choose the plural form of the word that belongs to the language,nuradu,nuratu,a,devoicing,FC,,,,,,,,,0,4,4,5,,,,,,,,,,a,1.1821782913193601,,,001,,2019_Feb_14_1038,experiment2_b,3.0.0,60.172354926888765,
nirugu,None,alt,Images/garbage_can_pl.jpg,Images/garbage_can.jpg,g,given,sg,Choose the singular form of the word that belongs to the language,nirug,niruk,k,devoicing,FC,,,,,,,,,0,5,5,1,,,,,,,,,,a,0.8831067106257251,,,001,,2019_Feb_14_1038,experiment2_b,3.0.0,60.172354926888765,
naridu,None,alt,Images/squid_pl.jpg,Images/squid.jpg,d,given,sg,Choose the singular form of the word that belongs to the language,narid,narit,k,devoicing,FC,,,,,,,,,0,6,6,6,,,,,,,,,,a,1.0659710134541456,,,001,,2019_Feb_14_1038,experiment2_b,3.0.0,60.172354926888765,
manigu,None,alt,Images/hoover_pl.jpg,Images/hoover.jpg,g,new,sg,Choose the singular form of the word that belongs to the language,manig,manik,k,devoicing,FC,,,,,,,,,0,7,7,3,,,,,,,,,,a,0.832499709896183,,,001,,2019_Feb_14_1038,experiment2_b,3.0.0,60.172354926888765,
rumap,None,alt,Images/soldier.jpg,Images/soldier_pl.jpg,b,given,pl,Choose the plural form of the word that belongs to the language,rumabu,rumapu,a,devoicing,FC,,,,,,,,,0,8,8,4,,,,,,,,,,a,0.7492858313025863,,,001,,2019_Feb_14_1038,experiment2_b,3.0.0,60.172354926888765,
milut,None,alt,Images/banana_pl.jpg,Images/banana.jpg,d,given,pl,Choose the plural form of the word that belongs to the language,miludu,milutu,a,devoicing,FC,,,,,,,,,0,9,9,7,,,,,,,,,,a,0.7497017897730984,,,001,,2019_Feb_14_1038,experiment2_b,3.0.0,60.172354926888765,
